Folder: mech306_capstone/data (part 3)

File: 265C_7L_1.csv
Test One

April-02-19,10:05:14 AM

(e.g.) Strength test for 0.5 inch diameter specimen without anealling.

02/04/2019,10:05:14 AM
Deflection (in),Force (lbf),Strain0,Strain1,Strain2,Strain3,Strain4,Strain5
        0.006666,         0.415499,        -0.810808,         8.724601, -0.010152,         0.000878, -0.004312,         0.010611
        0.015554,         0.623248,        -0.810483,         8.735307, -0.010152,         0.001203, -0.003663,         0.010611
        0.026664,         0.830997,        -0.810808,         8.734334, -0.010152,         0.000878, -0.003663,         0.010611
        0.039996,         0.623248,        -0.810808,         8.724601, -0.009827,         0.000554, -0.003988,         0.010611
        0.053328,         1.038747,        -0.810483,         8.724276, -0.010152,         0.001527, -0.004312,         0.010286
        0.066660,         1.038747,        -0.810483,         8.735631, -0.010152,         0.000878, -0.004312,         0.010611
        0.079992,         1.038747,        -0.810808,         8.734658, -0.010152,         0.000878, -0.004312,         0.010611
        0.095546,         2.492992,        -0.810808,         8.724276, -0.010152,         0.000878, -0.003988,         0.010286
        0.108878,         3.116240,        -0.810483,         8.734334, -0.010152,         0.000878, -0.003988,         0.010611
        0.124432,         4.778235,        -0.810808,         8.736929, -0.010152,         0.001203, -0.003988,         0.010611
        0.137764,        34.6941,        -0.810808,         8.724601, -0.010152,         0.000878, -0.003663,         0.010286
        0.153318,       108.237,        -0.810808,         8.735631, -0.009827,         0.000878, -0.003988,         0.011260
        0.168872,       359.406,        -0.811132,         8.725574, -0.010476,         0.000878, -0.004312,         0.010611
        0.182204,       669.992,        -0.811132,         8.736929, -0.009827,         0.001203, -0.003988,         0.010286
        0.197758,      1016.69,        -0.811132,         8.736605, -0.010152,         0.000878, -0.003663,         0.010611
        0.213312,      1377.33,        -0.810808,         8.726547, -0.010152,         0.000878, -0.004312,         0.010611
        0.226644,      1733.87,        -0.810808,         8.736929, -0.009827,         0.000878, -0.003663,         0.010611
        0.242198,      1069.15,        -0.811132,         8.735631, -0.010152,         0.001203, -0.003663,         0.010611
        0.257752,       121.949,        -0.810808,         8.727196, -0.010152,         0.000554, -0.004312,         0.010611
        0.273306,        15.1657,        -0.810808,         8.727196, -0.010152,         0.000554, -0.004312,         0.010611
        0.286638,         1.038747,        -0.811456,         8.726547, -0.010152,         0.000878, -0.003988,         0.010611
        0.297748,        -1.817807,        -0.810808,         8.723627, -0.009827,         0.000878, -0.004637,         0.010286
        0.299970,        -2.856554,        -0.810483,         8.736605, -0.010476,         0.000878, -0.003663,         0.010611

File: 265C_7L_3.csv
Test One

April-02-19,10:28:04 AM

(e.g.) Strength test for 0.5 inch diameter specimen without anealling.

02/04/2019,10:28:04 AM
Deflection (in),Force (lbf),Strain0,Strain1,Strain2,Strain3,Strain4,Strain5
        0.006666,         0.363561,        -0.812105,         8.741796, -0.009827,         0.000878, -0.003988,         0.010935
        0.015554,        -0.129843,        -0.812105,         8.731414, -0.009827,         0.000554, -0.003988,         0.010611
        0.028886,        -0.337593,        -0.812430,         8.731738, -0.010152,         0.000878, -0.003988,         0.010286
        0.039996,        -0.753091,        -0.812105,         8.731089, -0.010152,         0.000878, -0.004312,         0.010611
        0.055550,        -0.960841,        -0.812105,         8.731738, -0.009503,         0.000878, -0.003988,         0.009962
        0.068882,        -1.376339,        -0.812430,         8.741147, -0.010152,         0.000878, -0.003988,         0.010611
        0.082214,        -1.791838,        -0.812105,         8.730765, -0.010476,         0.000878, -0.003988,         0.010611
        0.097768,        -2.207337,        -0.811781,         8.741147, -0.010152,         0.000878, -0.003663,         0.010611
        0.113322,        -1.376339,        -0.812105,         8.740498, -0.009827,         0.000878, -0.003663,         0.010611
        0.128876,        -1.376339,        -0.812754,         8.731089, -0.009827,         0.000554, -0.003988,         0.010286
        0.142208,        -1.376339,        -0.812105,         8.729792, -0.010152,         0.001203, -0.003988,         0.010611
        0.157762,        -0.545342,        -0.812105,         8.730116, -0.010476,         0.000878, -0.003988,         0.010286
        0.173316,        -0.337593,        -0.812105,         8.738551, -0.010152,         0.000878, -0.003988,         0.010286
        0.188870,         0.155812,        -0.812105,         8.738227, -0.009827,         0.000554, -0.003988,         0.010611
        0.204424,         0.571311,        -0.812105,         8.738551, -0.009503,         0.000878, -0.003663,         0.010611
        0.219978,         0.571311,        -0.812105,         8.738227, -0.009827,         0.000554, -0.003988,         0.010286
        0.235532,       159.292,        -0.812105,         8.738227, -0.010152,         0.000878, -0.003988,         0.010611
        0.251086,       506.441,        -0.812105,         8.738227, -0.009503,         0.000878, -0.003988,         0.010611
        0.266640,       894.262,        -0.812105,         8.731089, -0.010152,         0.000878, -0.003663,         0.010935
        0.282194,      1280.31,        -0.812754,         8.725250, -0.009827,         0.000878, -0.004312,         0.010611
        0.295526,      1386.86,        -0.812430,         8.725574, -0.010152,         0.000554, -0.003663,         0.010286
        0.311080,      1255.72,        -0.812105,         8.735631, -0.009827,         0.000878, -0.003988,         0.010611
        0.326634,      1131.95,        -0.811781,         8.735956, -0.010152,         0.000878, -0.003663,         0.010286
        0.342188,      1068.02,        -0.811781,         8.736605, -0.009827,         0.000878, -0.003988,         0.010286
        0.357742,      1004.91,        -0.812430,         8.726223, -0.010152,         0.000878, -0.003988,         0.010611
        0.373296,       970.488,        -0.812430,         8.726547, -0.010152,         0.000878, -0.004637,         0.010286
        0.386628,       919.671,        -0.812105,         8.726872, -0.010476,         0.000554, -0.004312,         0.010611
        0.402182,       877.05,        -0.812105,         8.736929, -0.010152,         0.001203, -0.003988,         0.010611
        0.417736,       831.151,        -0.811781,         8.737578, -0.010152,         0.001203, -0.004312,         0.010935
        0.426624,       768.04,        -0.811781,         8.739200, -0.009827,         0.000878, -0.003988,         0.010611

File: 265C_7L_4.csv
Test One

April-02-19,10:33:32 AM

(e.g.) Strength test for 0.5 inch diameter specimen without anealling.

02/04/2019,10:33:32 AM
Deflection (in),Force (lbf),Strain0,Strain1,Strain2,Strain3,Strain4,Strain5
        0.004444,        -0.129843,        -0.812754,         8.732063, -0.010152,         0.000878, -0.003988,         0.010286
        0.011110,         0.363561,        -0.812754,         8.732387, -0.010152,         0.000554, -0.004312,         0.010286
        0.022220,         0.363561,        -0.812754,         8.733036, -0.010152,         0.000878, -0.003988,         0.010286
        0.035552,        14.906,        -0.812754,         8.740822, -0.010152,         0.000878, -0.003663,         0.010935
        0.048884,       219.124,        -0.812754,         8.731089, -0.009827,         0.000878, -0.004312,         0.010611
        0.064438,       540.512,        -0.812754,         8.741471, -0.009827,         0.000878, -0.003988,         0.010611
        0.079992,       908.708,        -0.812754,         8.731414, -0.010152,         0.000878, -0.003663,         0.009962
        0.093324,      1309.51,        -0.812430,         8.731089, -0.009827,         0.000554, -0.003988,         0.010286
        0.108878,       469.462,        -0.812430,         8.741471, -0.009827,         0.000878, -0.003988,         0.010935
        0.124432,        44.8219,        -0.812430,         8.741796, -0.010152,         0.000878, -0.003988,         0.010611
        0.139986,         0.363561,        -0.812430,         8.742120, -0.009827,         0.000554, -0.003988,         0.010935
        0.155540,        -5.531326,        -0.812430,         8.741796, -0.009503,         0.000878, -0.003988,         0.010611

File: 265C_13L_3.csv
Test One

April-02-19,9:52:53 AM

(e.g.) Strength test for 0.5 inch diameter specimen without anealling.

02/04/2019,9:52:53 AM
Deflection (in),Force (lbf),Strain0,Strain1,Strain2,Strain3,Strain4,Strain5
        0.004444,         0.571311,        -0.810808,         8.730440, -0.009827,         0.000554, -0.003988,         0.010935
        0.013332,         0.779060,        -0.810808,         8.720059, -0.009827,         0.000554, -0.004312,         0.010935
        0.024442,         1.610057,        -0.810808,         8.720059, -0.009827,         0.000554, -0.004312,         0.010286
        0.035552,         1.610057,        -0.810483,         8.730440, -0.009827,         0.000878, -0.003988,         0.010611
        0.048884,         1.194559,        -0.810808,         8.731414, -0.009503,         0.000554, -0.003663,         0.010286
        0.062216,        52.9241,        -0.811132,         8.730765, -0.009827,         0.000878, -0.003988,         0.010935
        0.075548,       294.537,        -0.810159,         8.731414, -0.009503,         0.000878, -0.003988,         0.010611
        0.088880,       623.196,        -0.810159,         8.730765, -0.009503,         0.000878, -0.004312,         0.010611
        0.102212,      1015.98,        -0.810808,         8.721032, -0.009827,         0.000878, -0.004312,         0.010611
        0.117766,      1420.05,        -0.810483,         8.732712, -0.009827,         0.000878, -0.004312,         0.010935
        0.131098,      1814.29,        -0.810808,         8.732387, -0.009827,         0.000554, -0.003663,         0.010611
        0.146652,      2161,        -0.810808,         8.722654, -0.009827,         0.000878, -0.003988,         0.010935
        0.159984,       806.152,        -0.810483,         8.727196, -0.010152,         0.000554, -0.003988,         0.010286
        0.175538,        91.15,        -0.810483,         8.733360, -0.009827,         0.001203, -0.003988,         0.010611
        0.191092,         7.842538,        -0.810808,         8.723303, -0.009503,         0.000554, -0.004312,         0.010611
        0.204424,        -4.284831,        -0.810808,         8.720707, -0.009827,         0.000878, -0.004312,         0.010611
        0.219978,        -6.985572,        -0.811132,         8.731414, -0.009503,         0.000878, -0.003663,         0.010611
        0.228866,        -8.439817,        -0.811132,         8.721681, -0.009503,         0.000878, -0.003988,         0.010611

File: 265C_13L_4.csv
Test One,,,Perfect layer adhesion,,,,
,,,,,,,
April-02-19,11:27:24 AM,,,,,,
,,,,,,,
(e.g.) Strength test for 0.5 inch diameter specimen without anealling.,,,,,,,
,,,,,,,
02/04/2019,11:27:24 AM,,,,,,
Deflection (in),Force (lbf),Strain0,Strain1,Strain2,Strain3,Strain4,Strain5
0.004444,1.038747,-0.814376,8.755746,-0.010476,0.000554,-0.004961,0.009313
0.013332,0.830997,-0.814376,8.756395,-0.010152,0.000554,-0.004961,0.009313
0.02222,1.661995,-0.814052,8.766777,-0.010476,0.00023,-0.004961,0.009638
0.031108,1.869744,-0.814376,8.757044,-0.010152,0.000554,-0.004961,0.009313
0.042218,2.077493,-0.814376,8.766777,-0.010476,0.00023,-0.004961,0.009962
0.053328,1.869744,-0.814052,8.767102,-0.009827,0.000554,-0.004961,0.009638
0.064438,37.1871,-0.814052,8.76775,-0.010476,0.000878,-0.004961,0.009638
0.075548,205.464,-0.814052,8.76775,-0.010152,0.00023,-0.004961,0.009962
0.086658,492.781,-0.814701,8.758666,-0.010476,0.00023,-0.005286,0.009313
0.097768,821.11,-0.814701,8.758342,-0.010476,0.000878,-0.004961,0.009638
0.1111,1157.16,-0.814376,8.758342,-0.010801,0.000554,-0.004961,0.009638
0.12221,1503.04,-0.814376,8.758342,-0.010476,0.000554,-0.004637,0.009313
0.13332,1839.09,-0.814376,8.76775,-0.010152,0.000878,-0.004961,0.009313
0.14443,2157.92,-0.814052,8.76775,-0.010476,0.000554,-0.004961,0.009638
0.15554,2432.5,-0.814376,8.767102,-0.010152,0.00023,-0.004961,0.009638
0.16665,2344.8,-0.814052,8.767102,-0.010801,0.00023,-0.004961,0.009638
0.17776,2179.23,-0.814052,8.757369,-0.010476,0.00023,-0.004961,0.009638
0.18887,2051.37,-0.814052,8.758342,-0.010152,0.00023,-0.005286,0.008989
0.202202,363.561,-0.814376,8.758342,-0.010152,0.000554,-0.004961,0.008989
0.213312,45.28936,-0.814052,8.768399,-0.010476,0.000878,-0.004637,0.009313
0.224422,10.5952,-0.814376,8.75964,-0.010476,0.000878,-0.004961,0.008989
0.237754,5.609232,-0.814376,8.759964,-0.010152,0.000554,-0.005286,0.009313
0.239976,3.947238,-0.814052,8.769697,-0.010152,0.000554,-0.004637,0.009313
0.246642,1.661995,-0.814376,8.761586,-0.010476,0.00023,-0.005286,0.009313
0.253308,1.661995,-0.814376,8.771319,-0.010476,0.00023,-0.004961,0.009638
0.264418,1.661995,-0.814701,8.762235,-0.010476,0.000878,-0.004961,0.009313
0.273306,2.077493,-0.814701,8.761911,-0.010801,0.00023,-0.004961,0.009313
0.284416,2.285243,-0.814701,8.761586,-0.010152,0.00023,-0.005286,0.009638
0.293304,2.285243,-0.814376,8.771968,-0.010476,0.000878,-0.004637,0.009313