Folder: mech306_capstone/data (part 2)

File: 245C_7L_6.csv
Test One

April-01-19,5:53:31 PM

(e.g.) Strength test for 0.5 inch diameter specimen without anealling.

01/04/2019,5:53:31 PM
Deflection (in),Force (lbf),Strain0,Strain1,Strain2,Strain3,Strain4,Strain5
        0.002222,         1.012778,        -0.815025,         8.741471, -0.008854,         0.000554, -0.004312,         0.009638
        0.011110,         1.636026,        -0.814701,         8.741796, -0.009179,         0.000230, -0.003988,         0.009638
        0.019998,         1.843776,        -0.814701,         8.741796, -0.008854,         0.000230, -0.003988,         0.009962
        0.028886,         2.051525,        -0.815025,         8.751204, -0.008854,        -0.000095, -0.003988,         0.010611
        0.039996,         2.467024,        -0.815025,         8.751529, -0.009503,        -0.000095, -0.003988,         0.009962
        0.051106,         3.921269,        -0.814376,         8.752502, -0.009179,        -0.000095, -0.003988,         0.009962
        0.062216,         5.791013,        -0.814701,         8.752826, -0.009179,         0.000230, -0.003988,         0.010286
        0.073326,        44.0169,        -0.814701,         8.752502, -0.008854,         0.000554, -0.003663,         0.009962
        0.086658,       178.223,        -0.814701,         8.742120, -0.009503,         0.000230, -0.003988,         0.009962
        0.097768,       373.507,        -0.815025,         8.752502, -0.008854,         0.000554, -0.003988,         0.009962
        0.108878,       606.602,        -0.815025,         8.752178, -0.009179,         0.000878, -0.003988,         0.009962
        0.122210,       896.721,        -0.815025,         8.742769, -0.008854,         0.000554, -0.003663,         0.009638
        0.133320,      1203.26,        -0.815025,         8.753800, -0.009503,         0.000230, -0.003988,         0.009962
        0.144430,      1504.89,        -0.815349,         8.743418, -0.009179,         0.000230, -0.003988,         0.009962
        0.157762,      1749.13,        -0.815349,         8.744067, -0.009503,         0.000230, -0.004312,         0.009638
        0.168872,      1212.28,        -0.815025,         8.753800, -0.009179,         0.000230, -0.003988,         0.009638
        0.182204,       111.328,        -0.815349,         8.744067, -0.009179,        -0.000095, -0.003988,         0.009638
        0.193314,        15.3475,        -0.815025,         8.745040, -0.009503,         0.000230, -0.004312,         0.009638
        0.206646,         4.336768,        -0.814701,         8.750555, -0.009179,         0.000554, -0.003663,         0.010286
        0.217756,         1.843776,        -0.815025,         8.743093, -0.008854,         0.000230, -0.004312,         0.009962
        0.231088,         0.597279,        -0.814701,         8.753151, -0.008854,         0.000230, -0.004312,         0.010286
        0.244420,        -0.207749,        -0.815349,         8.742120, -0.008854,         0.000230, -0.003988,         0.009962
        0.255530,        -0.830997,        -0.814701,         8.751853, -0.008854,        -0.000095, -0.003988,         0.009962
        0.268862,        -1.454245,        -0.815025,         8.741471, -0.009179,         0.000554, -0.003988,         0.010286
        0.279972,        -2.077493,        -0.815025,         8.740822, -0.009179,         0.000554, -0.003988,         0.009962
        0.293304,        -2.700742,        -0.814701,         8.751204, -0.008854,         0.000878, -0.003988,         0.009638
        0.304414,        -3.116240,        -0.814701,         8.740498, -0.009179,         0.000230, -0.004312,         0.009962

File: 245C_13L_2.csv
Test One

April-01-19,5:59:23 PM

(e.g.) Strength test for 0.5 inch diameter specimen without anealling.

01/04/2019,5:59:23 PM
Deflection (in),Force (lbf),Strain0,Strain1,Strain2,Strain3,Strain4,Strain5
        0.004444,         0.103875,        -0.815025,         8.752502, -0.009179,         0.000554, -0.004312,         0.009962
        0.013332,         0.311624,        -0.815349,         8.752826, -0.009503,         0.000230, -0.004637,         0.009313
        0.022220,         0.519373,        -0.815025,         8.762884, -0.008854,         0.000230, -0.004312,         0.009638
        0.033330,         1.973619,        -0.815349,         8.752826, -0.009503,         0.000230, -0.004312,         0.009638
        0.042218,        14.2308,        -0.815025,         8.752502, -0.009179,        -0.000095, -0.004637,         0.009638
        0.055550,       145.736,        -0.815674,         8.753151, -0.009179,         0.000230, -0.004312,         0.009638
        0.066660,       352.239,        -0.815025,         8.752826, -0.009179,        -0.000095, -0.004312,         0.009962
        0.077770,       613.172,        -0.814701,         8.762560, -0.009179,         0.000554, -0.003988,         0.009962
        0.088880,       928.072,        -0.815025,         8.752178, -0.009179,         0.000230, -0.003988,         0.009638
        0.102212,      1277.23,        -0.815025,         8.752502, -0.009179,         0.000230, -0.004312,         0.009962
        0.113322,      1614.1,        -0.814701,         8.762235, -0.008854,         0.000230, -0.004312,         0.010286
        0.126654,      1891.95,        -0.815025,         8.752826, -0.009179,         0.000230, -0.004312,         0.009638
        0.137764,      2112.43,        -0.815025,         8.762235, -0.009179,         0.000554, -0.003988,         0.009962
        0.151096,       184.17,        -0.815025,         8.763208, -0.009179,         0.000230, -0.003663,         0.009638
        0.164428,        22.5408,        -0.815349,         8.752502, -0.009179,         0.000230, -0.004312,         0.009638
        0.175538,         5.297608,        -0.815025,         8.762235, -0.008854,         0.000230, -0.003988,         0.009962
        0.188870,         1.973619,        -0.814701,         8.762235, -0.009179,         0.000230, -0.004312,         0.009962
        0.202202,         0.934872,        -0.815025,         8.752826, -0.009503,         0.000230, -0.004637,         0.009638
        0.213312,         0.519373,        -0.814701,         8.762560, -0.008854,        -0.000095, -0.003988,         0.009638
        0.226644,         0.103875,        -0.814376,         8.762560, -0.008854,         0.000230, -0.003663,         0.009962

File: 245C_13L_4.csv
Test One,,,Sample started sliding in test,,,,
,,,,,,,
April-01-19,6:10:01 PM,,,,,,
,,,,,,,
(e.g.) Strength test for 0.5 inch diameter specimen without anealling.,,,,,,,
,,,,,,,
01/04/2019,6:10:01 PM,,,,,,
Deflection (in),Force (lbf),Strain0,Strain1,Strain2,Strain3,Strain4,Strain5
0.004444,-0.597279,-0.815025,8.766453,-0.009179,0.00023,-0.003988,0.009638
0.013332,-0.597279,-0.815349,8.757693,-0.009179,0.00023,-0.004637,0.009638
0.02222,0.467436,-0.815349,8.767102,-0.009179,0.000554,-0.004312,0.009962
0.03333,1.713932,-0.815674,8.757693,-0.009503,0.00023,-0.004961,0.009313
0.04444,5.245671,-0.815025,8.758342,-0.009827,0.00023,-0.004637,0.009313
0.05555,221.72,-0.815349,8.758666,-0.009503,0.00023,-0.004312,0.009638
0.06666,580.504,-0.814701,8.768075,-0.008854,0.00023,-0.004312,0.009638
0.07777,944.055,-0.815025,8.758017,-0.009503,-0.000095,-0.004312,0.009638
0.091102,1251.42,-0.814701,8.758666,-0.009179,0.00023,-0.004312,0.009638
0.102212,1521.89,-0.814701,8.76775,-0.009503,0.00023,-0.004312,0.009638
0.115544,1625.17,-0.815025,8.758991,-0.009503,0.00023,-0.004637,0.009638
0.126654,1522.71,-0.815025,8.758342,-0.009503,0.00023,-0.004637,0.009638
0.139986,1436.65,-0.814701,8.768399,-0.009503,-0.000095,-0.004312,0.009962
0.153318,1357.97,-0.815025,8.758991,-0.008854,0.00023,-0.004637,0.009638
0.164428,1009.62,-0.814376,8.767426,-0.009179,0.000554,-0.003988,0.009638
0.17776,94.9934,-0.814701,8.76775,-0.009179,0.00023,-0.003988,0.009962
0.191092,10.4394,-0.814701,8.768075,-0.009503,0.000554,-0.003988,0.009638
0.204424,0.675185,-0.815025,8.758666,-0.009503,-0.000095,-0.004312,0.009313
0.215534,-1.012778,-0.814701,8.767426,-0.009179,0.00023,-0.004312,0.009962

File: 245C_13L_5.csv
Test One

April-01-19,6:14:45 PM

(e.g.) Strength test for 0.5 inch diameter specimen without anealling.

01/04/2019,6:14:45 PM
Deflection (in),Force (lbf),Strain0,Strain1,Strain2,Strain3,Strain4,Strain5
        0.002222,         0.129843,        -0.815349,         8.769048, -0.008854,         0.000554, -0.004312,         0.009313
        0.006666,         0.337593,        -0.815674,         8.759315, -0.009179,         0.000230, -0.004637,         0.009313
        0.015554,         0.545342,        -0.815025,         8.769048, -0.009179,         0.000230, -0.004312,         0.009313
        0.024442,         1.168590,        -0.815349,         8.759964, -0.009179,        -0.000095, -0.004637,         0.009313
        0.035552,         2.415086,        -0.815349,         8.769373, -0.009179,         0.000230, -0.003988,         0.009962
        0.046662,       132.882,        -0.815349,         8.769373, -0.009179,         0.000230, -0.004312,         0.009638
        0.057772,       450.53,        -0.815349,         8.769373, -0.009503,         0.000230, -0.003988,         0.009962
        0.068882,       767.348,        -0.815674,         8.770022, -0.008854,         0.000554, -0.004312,         0.009962
        0.079992,      1147.73,        -0.815674,         8.760937, -0.009179,         0.000230, -0.004637,         0.009313
        0.093324,      1479.68,        -0.815349,         8.760613, -0.009503,         0.000230, -0.004637,         0.009638
        0.104434,      1762.45,        -0.815674,         8.770022, -0.009503,         0.000230, -0.003988,         0.009638
        0.117766,      1391.16,        -0.815674,         8.760937, -0.009503,         0.000230, -0.004637,         0.009313
        0.128876,       132.051,        -0.815349,         8.770022, -0.009503,        -0.000095, -0.004312,         0.009638
        0.142208,        13.8413,        -0.815998,         8.765804, -0.009179,         0.000230, -0.004637,         0.009313
        0.153318,         0.753091,        -0.815674,         8.760613, -0.009503,        -0.000095, -0.004312,         0.009638

File: 265C_2L_1.csv
Test One

April-02-19,11:08:12 AM

(e.g.) Strength test for 0.5 inch diameter specimen without anealling.

02/04/2019,11:08:12 AM
Deflection (in),Force (lbf),Strain0,Strain1,Strain2,Strain3,Strain4,Strain5
        0.004444,         0.207749,        -0.813727,         8.727521, -0.010476,         0.000878, -0.004312,         0.010286
        0.013332,         0.077906,        -0.813727,         8.728494, -0.010476,         0.000878, -0.004312,         0.010611
        0.022220,         0.077906,        -0.813403,         8.728494, -0.010476,         0.000878, -0.003988,         0.010611
        0.031108,         0.077906,        -0.813727,         8.739849, -0.010801,         0.000878, -0.003663,         0.010611
        0.042218,         0.077906,        -0.813727,         8.728494, -0.010152,         0.000878, -0.004312,         0.010286
        0.051106,         0.908903,        -0.813727,         8.728169, -0.010801,         0.000878, -0.003988,         0.010935
        0.062216,         1.324402,        -0.814052,         8.739525, -0.010476,         0.001203, -0.004312,         0.010935
        0.073326,         1.116653,        -0.813727,         8.739525, -0.010801,         0.000878, -0.003988,         0.010286
        0.084436,         1.324402,        -0.814052,         8.727845, -0.010801,         0.000878, -0.003988,         0.010611
        0.095546,        42.8743,        -0.813727,         8.728494, -0.010476,         0.000878, -0.004312,         0.010286
        0.106656,       133.868,        -0.814052,         8.728169, -0.010152,         0.001203, -0.004312,         0.010286
        0.119988,       241.067,        -0.814052,         8.728169, -0.010476,         0.000554, -0.003988,         0.010286
        0.131098,       356.16,        -0.814052,         8.727845, -0.010152,         0.000878, -0.004312,         0.010286
        0.142208,       469.799,        -0.813727,         8.739200, -0.010152,         0.001203, -0.003988,         0.010611
        0.153318,       580.53,        -0.813727,         8.739200, -0.010476,         0.000878, -0.003663,         0.010611
        0.164428,       684.404,        -0.813727,         8.738876, -0.010476,         0.000878, -0.003663,         0.010611
        0.175538,        69.0507,        -0.814052,         8.737902, -0.010152,         0.000878, -0.003663,         0.010611
        0.186648,         6.725885,        -0.813727,         8.737254, -0.010152,         0.000878, -0.004312,         0.010935
        0.197758,        -0.129843,        -0.814052,         8.726872, -0.010152,         0.001203, -0.004312,         0.010611
        0.208868,        -0.415499,        -0.814052,         8.726223, -0.010152,         0.000878, -0.003988,         0.010611
        0.222200,        -0.623248,        -0.814376,         8.726872, -0.010152,         0.001527, -0.004312,         0.010611
        0.228866,        -0.623248,        -0.814052,         8.727521, -0.010801,         0.001203, -0.004312,         0.010935

File: 265C_2L_2.csv
Test One

April-02-19,11:14:37 AM

(e.g.) Strength test for 0.5 inch diameter specimen without anealling.

02/04/2019,11:14:37 AM
Deflection (in),Force (lbf),Strain0,Strain1,Strain2,Strain3,Strain4,Strain5
        0.004444,        -0.077906,        -0.812754,         8.728818, -0.010476,         0.000878, -0.003988,         0.010611
        0.011110,        -0.077906,        -0.813079,         8.740822, -0.010476,         0.000878, -0.003988,         0.010611
        0.019998,        -0.285655,        -0.812754,         8.740498, -0.009827,         0.001203, -0.003663,         0.010611
        0.031108,        -0.493405,        -0.813079,         8.730116, -0.009827,         0.000878, -0.003988,         0.010286
        0.039996,        -0.701154,        -0.812754,         8.728818, -0.010476,         0.000878, -0.003988,         0.010611
        0.053328,        -0.908903,        -0.813079,         8.729792, -0.010152,         0.001203, -0.004312,         0.010611
        0.064438,        -1.116653,        -0.813079,         8.741471, -0.010152,         0.000878, -0.004637,         0.010935
        0.075548,        -1.324402,        -0.812754,         8.741471, -0.010152,         0.001203, -0.004312,         0.010611
        0.088880,        -0.701154,        -0.813403,         8.730116, -0.010152,         0.000878, -0.004312,         0.010286
        0.099990,         1.038747,        -0.813079,         8.741471, -0.010152,         0.000878, -0.003988,         0.010935
        0.113322,         1.454245,        -0.813403,         8.731089, -0.010152,         0.000554, -0.004312,         0.010611
        0.124432,         1.869744,        -0.812754,         8.742445, -0.010152,         0.000878, -0.003663,         0.010611
        0.135542,        39.4724,        -0.813403,         8.731089, -0.010152,         0.000878, -0.004312,         0.010611
        0.148874,       135.245,        -0.813079,         8.743093, -0.009827,         0.000554, -0.004312,         0.010286
        0.159984,       249.507,        -0.813079,         8.729792, -0.009827,         0.000554, -0.004312,         0.010286
        0.173316,       376.65,        -0.813079,         8.742120, -0.010152,         0.000878, -0.003988,         0.010611
        0.184426,        55.8846,        -0.813727,         8.731089, -0.010152,         0.000554, -0.004312,         0.010286
        0.197758,         5.609232,        -0.813403,         8.731089, -0.010152,         0.000878, -0.003988,         0.010935
        0.208868,         0.623248,        -0.812754,         8.742445, -0.010152,         0.000878, -0.003988,         0.010935
        0.219978,         0.000000,        -0.812754,         8.741796, -0.010152,         0.000878, -0.004312,         0.010286
        0.222200,        -0.285655,        -0.813079,         8.742769, -0.010152,         0.000878, -0.003988,         0.010611

File: 265C_2L_3.csv
Test One

April-02-19,11:20:29 AM

(e.g.) Strength test for 0.5 inch diameter specimen without anealling.

02/04/2019,11:20:29 AM
Deflection (in),Force (lbf),Strain0,Strain1,Strain2,Strain3,Strain4,Strain5
        0.004444,        -0.701154,        -0.812754,         8.739525, -0.009503,         0.000878, -0.003663,         0.010611
        0.011110,        -0.701154,        -0.813079,         8.739525, -0.009827,         0.000878, -0.003988,         0.010935
        0.019998,        -0.285655,        -0.813079,         8.727845, -0.009827,         0.000878, -0.004312,         0.010286
        0.028886,        -0.285655,        -0.813079,         8.727845, -0.010152,         0.000878, -0.003988,         0.010611
        0.037774,        -0.285655,        -0.813079,         8.739525, -0.009827,         0.001203, -0.003663,         0.010611
        0.046662,        -0.077906,        -0.813079,         8.727196, -0.010152,         0.000878, -0.004312,         0.010286
        0.057772,         0.830997,        -0.813079,         8.738876, -0.010152,         0.000878, -0.003988,         0.010611
        0.068882,         1.454245,        -0.813403,         8.727845, -0.010152,         0.000878, -0.004312,         0.010286
        0.077770,         1.869744,        -0.813079,         8.738227, -0.009827,         0.000878, -0.003988,         0.010611
        0.088880,         2.077493,        -0.813403,         8.738551, -0.009503,         0.000878, -0.003988,         0.010611
        0.099990,        36.5639,        -0.813727,         8.726872, -0.010152,         0.000878, -0.004312,         0.010286
        0.108878,       118.209,        -0.813079,         8.737902, -0.010152,         0.000878, -0.003988,         0.010611
        0.119988,       207.334,        -0.813079,         8.738227, -0.009827,         0.000878, -0.003988,         0.010286
        0.131098,       313.078,        -0.813727,         8.727845, -0.010152,         0.000878, -0.004312,         0.010286
        0.139986,       422.147,        -0.813403,         8.727196, -0.009827,         0.000878, -0.004312,         0.010611
        0.151096,       525.398,        -0.813079,         8.738876, -0.009827,         0.000230, -0.003988,         0.010935
        0.162206,       624.079,        -0.813403,         8.727196, -0.010152,         0.001203, -0.004312,         0.010611
        0.171094,       718.605,        -0.813079,         8.726872, -0.010152,         0.000554, -0.004312,         0.009962
        0.182204,       109.068,        -0.813403,         8.738227, -0.009503,         0.000554, -0.003663,         0.010286
        0.193314,        13.7115,        -0.813079,         8.738551, -0.009503,         0.000554, -0.003988,         0.010286
        0.204424,         3.531739,        -0.813079,         8.727845, -0.009827,         0.000878, -0.004312,         0.010286
        0.206646,         1.454245,        -0.813403,         8.728169, -0.009827,         0.000878, -0.004312,         0.010611

File: 265C_4L_1.csv
Test One

April-02-19,10:40:19 AM

(e.g.) Strength test for 0.5 inch diameter specimen without anealling.

02/04/2019,10:40:19 AM
Deflection (in),Force (lbf),Strain0,Strain1,Strain2,Strain3,Strain4,Strain5
        0.002222,        -0.181781,        -0.813079,         8.750880, -0.010152,         0.001203, -0.003988,         0.010611
        0.011110,         0.986809,        -0.813403,         8.740822, -0.010476,         0.000878, -0.003988,         0.010286
        0.022220,         2.441055,        -0.813403,         8.741147, -0.010476,         0.000878, -0.004312,         0.010935
        0.035552,         2.648804,        -0.813727,         8.741147, -0.010476,         0.000878, -0.004312,         0.010286
        0.048884,         2.441055,        -0.813079,         8.750555, -0.010476,         0.001203, -0.003988,         0.010611
        0.064438,        97.1748,        -0.813079,         8.748933, -0.010476,         0.000878, -0.004637,         0.010611
        0.079992,       320.09,        -0.813079,         8.741471, -0.010152,         0.000878, -0.004312,         0.010286
        0.095546,       585.801,        -0.813079,         8.750880, -0.009827,         0.000878, -0.003988,         0.010286
        0.111100,       862.911,        -0.812754,         8.752178, -0.010152,         0.000878, -0.004312,         0.010286
        0.126654,      1135.85,        -0.812754,         8.751853, -0.010152,         0.000878, -0.004312,         0.010611
        0.142208,       393.01,        -0.812754,         8.752178, -0.010152,         0.000878, -0.003988,         0.010935
        0.157762,        42.9522,        -0.813403,         8.742120, -0.010476,         0.000554, -0.004312,         0.009962
        0.175538,         6.596042,        -0.812754,         8.743093, -0.010152,         0.000554, -0.004312,         0.010286

File: 265C_4L_2.csv
Test One

April-02-19,10:46:36 AM

(e.g.) Strength test for 0.5 inch diameter specimen without anealling.

02/04/2019,10:46:36 AM
Deflection (in),Force (lbf),Strain0,Strain1,Strain2,Strain3,Strain4,Strain5
        0.002222,        -0.129843,        -0.812105,         8.752178, -0.010152,         0.000878, -0.003663,         0.010611
        0.008888,        -0.129843,        -0.813079,         8.740822, -0.010152,         0.001203, -0.003988,         0.010611
        0.019998,         0.155812,        -0.812754,         8.750231, -0.010476,         0.001203, -0.004312,         0.010611
        0.033330,         0.155812,        -0.812754,         8.741147, -0.010476,         0.000878, -0.004312,         0.010611
        0.044440,         0.155812,        -0.812754,         8.741471, -0.010476,         0.000878, -0.003988,         0.010286
        0.053328,         0.363561,        -0.812754,         8.739525, -0.010476,         0.000878, -0.003988,         0.010611
        0.064438,         0.571311,        -0.812754,         8.750231, -0.010152,         0.000554, -0.003988,         0.010611
        0.075548,         0.779060,        -0.813079,         8.749582, -0.010476,         0.000878, -0.003663,         0.010611
        0.086658,         1.817807,        -0.813079,         8.750231, -0.010152,         0.000878, -0.003988,         0.010611
        0.097768,         2.441055,        -0.812754,         8.749258, -0.010152,         0.000878, -0.003988,         0.010611
        0.108878,         2.856554,        -0.813403,         8.740174, -0.009827,         0.000878, -0.003663,         0.010611
        0.117766,         3.687551,        -0.812754,         8.739525, -0.010476,         0.000878, -0.003988,         0.010286
        0.128876,        32.7725,        -0.813079,         8.740174, -0.010476,         0.000878, -0.003988,         0.009962
        0.139986,       118.365,        -0.812754,         8.750231, -0.010152,         0.000878, -0.004312,         0.010611
        0.151096,       266.49,        -0.812754,         8.750555, -0.010152,         0.000878, -0.003988,         0.010611
        0.162206,       451.595,        -0.813079,         8.750880, -0.010476,         0.000878, -0.003663,         0.010611
        0.173316,       640.647,        -0.812754,         8.751204, -0.010152,         0.000878, -0.003988,         0.010611
        0.184426,       824.082,        -0.813079,         8.741147, -0.010152,         0.000878, -0.004312,         0.010935
        0.195536,       997.843,        -0.813079,         8.741147, -0.010476,         0.000878, -0.004312,         0.010286
        0.206646,       378.675,        -0.813079,         8.741471, -0.010152,         0.000878, -0.004312,         0.010286
        0.217756,        44.6142,        -0.813727,         8.741147, -0.010152,         0.000554, -0.004637,         0.010611
        0.228866,         9.504533,        -0.813079,         8.741471, -0.010152,         0.000878, -0.003988,         0.010611
        0.239976,         5.141797,        -0.812430,         8.751529, -0.010152,         0.000878, -0.003988,         0.010935
        0.251086,         4.518548,        -0.813079,         8.741147, -0.010152,         0.000878, -0.004312,         0.010935
        0.257752,         4.310799,        -0.812754,         8.740498, -0.010152,         0.000878, -0.004312,         0.010611