Folder: mech306_capstone/data

File: 245C_2L_1.csv
Test One

April-01-19,2:55:07 PM

(e.g.) Strength test for 0.5 inch diameter specimen without anealling.

01/04/2019,2:55:07 PM
Deflection (in),Force (lbf),Strain0,Strain1,Strain2,Strain3,Strain4,Strain5
        0.002222,         0.077906,        -0.813079,         8.742769, -0.009503,         0.000878, -0.004312,         0.009962
        0.008888,         0.493405,        -0.813403,         8.732063, -0.009503,         0.000230, -0.003663,         0.010286
        0.017776,         1.532151,        -0.813079,         8.743093, -0.009179,         0.000554, -0.003988,         0.010611
        0.028886,         2.363149,        -0.812754,         8.742769, -0.009827,         0.000554, -0.003988,         0.009962
        0.039996,         3.194146,        -0.813403,         8.731738, -0.009179,         0.000230, -0.004312,         0.009962
        0.053328,         3.817394,        -0.812754,         8.743418, -0.009503,         0.000878, -0.004312,         0.010611
        0.066660,         4.440642,        -0.813079,         8.734334, -0.009827,         0.000554, -0.003988,         0.009638
        0.079992,         5.063890,        -0.812754,         8.734009, -0.009503,         0.000554, -0.004312,         0.009962
        0.093324,         5.687139,        -0.813079,         8.733685, -0.009503,         0.000878, -0.003988,         0.010286
        0.106656,         6.518136,        -0.813403,         8.734334, -0.009503,         0.000554, -0.003988,         0.009962
        0.119988,         6.933635,        -0.813403,         8.734009, -0.009827,         0.000554, -0.004312,         0.009962
        0.133320,        23.9691,        -0.813403,         8.743742, -0.009827,         0.000554, -0.003988,         0.010286
        0.146652,        91.0721,        -0.813403,         8.732712, -0.009827,         0.000230, -0.004637,         0.009962
        0.162206,       190.376,        -0.813403,         8.733036, -0.009503,         0.000230, -0.004312,         0.009962
        0.175538,       289.681,        -0.813403,         8.732712, -0.009827,         0.000554, -0.003988,         0.009962
        0.188870,       240.652,        -0.812754,         8.742769, -0.009503,         0.000554, -0.003988,         0.009962
        0.202202,        30.4093,        -0.813079,         8.732063, -0.009503,         0.000554, -0.003663,         0.010611
        0.217756,        11.2964,        -0.813403,         8.732063, -0.009503,         0.000554, -0.004637,         0.010286
        0.231088,         9.426627,        -0.813403,         8.732712, -0.009503,         0.000878, -0.004312,         0.010286
        0.244420,         9.011128,        -0.813079,         8.742445, -0.009503,         0.000554, -0.003988,         0.010611
        0.257752,         9.218878,        -0.813727,         8.735631, -0.009827,         0.000554, -0.004637,         0.009962
        0.266640,         9.011128,        -0.813079,         8.732387, -0.009827,         0.000554, -0.004312,         0.009962

File: 245C_2L_3.csv
Test One

April-01-19,5:00:24 PM

(e.g.) Strength test for 0.5 inch diameter specimen without anealling.

01/04/2019,5:00:24 PM
Deflection (in),Force (lbf),Strain0,Strain1,Strain2,Strain3,Strain4,Strain5
        0.004444,         0.467436,        -0.813403,         8.731414, -0.009503,         0.000554, -0.003988,         0.009962
        0.013332,        21.2424,        -0.813403,         8.742445, -0.009503,         0.000554, -0.004312,         0.009962
        0.022220,        99.5639,        -0.813403,         8.742445, -0.009827,         0.001203, -0.003988,         0.010286
        0.033330,       204.477,        -0.813403,         8.732387, -0.009827,         0.000878, -0.004312,         0.009962
        0.044440,       322.894,        -0.813403,         8.731738, -0.009827,         0.000554, -0.004312,         0.009962
        0.055550,       442.974,        -0.813079,         8.732712, -0.009503,         0.000554, -0.003663,         0.010286
        0.066660,       554.119,        -0.813403,         8.742120, -0.009503,         0.000878, -0.003663,         0.010611
        0.077770,       290.693,        -0.812754,         8.731738, -0.009503,         0.000554, -0.004312,         0.009962
        0.091102,        25.8129,        -0.812754,         8.742445, -0.009503,         0.000878, -0.003988,         0.010286
        0.102212,         0.467436,        -0.813403,         8.731414, -0.009503,         0.000554, -0.003988,         0.009962

File: 245C_4L_1.csv
245C 4L Test 1, ,   ,Specimen slipped during test

April-01-19,2:20:49 PM

(e.g.) Strength test for 0.5 inch diameter specimen without anealling.

01/04/2019,2:20:49 PM
Deflection (in),Force (lbf),Strain0,Strain1,Strain2,Strain3,Strain4,Strain5
  9.54342e+06,         6.258449,        -0.813403,         8.716165, -0.009503,         0.000554, -0.003988,         0.010611
  9.54342e+06,         0.233718,        -0.812754,         8.715192, -0.009503,         0.000554, -0.003988,         0.010611
  9.54342e+06,         1.272465,        -0.812754,         8.714868, -0.009503,         0.000554, -0.003988,         0.010935
  9.54342e+06,         1.895713,        -0.812754,         8.726223, -0.009503,         0.000878, -0.003339,         0.010935
  9.54342e+06,         1.895713,        -0.812430,         8.714868, -0.009179,         0.000230, -0.003663,         0.010611
  9.54342e+06,        34.3046,        -0.812754,         8.727845, -0.009503,         0.000878, -0.003339,         0.010935
  9.54342e+06,       176.197,        -0.812430,         8.727845, -0.009179,         0.000554, -0.003663,         0.011260
  9.54342e+06,       316.428,        -0.812754,         8.727845, -0.008854,         0.000878, -0.003988,         0.010935
  9.54342e+06,       334.918,        -0.812430,         8.727845, -0.009503,         0.000230, -0.003663,         0.010935
  9.54342e+06,       315.805,        -0.813079,         8.716165, -0.009503,         0.000554, -0.003663,         0.010286
  9.54342e+06,       289.005,        -0.812430,         8.728494, -0.009503,         0.000554, -0.003663,         0.011260
  9.54342e+06,       266.361,        -0.812754,         8.727845, -0.008854,         0.000878, -0.003663,         0.010935
  9.54342e+06,       248.91,        -0.812754,         8.715841, -0.009503,         0.000878, -0.003663,         0.010611
  9.54342e+06,       234.99,        -0.813079,         8.726872, -0.009503,         0.000878, -0.003339,         0.011260
  9.54342e+06,       225.226,        -0.813079,         8.715192, -0.009179,         0.000878, -0.003663,         0.010611
  9.54342e+06,       217.747,        -0.812754,         8.727196, -0.009179,         0.000878, -0.003339,         0.010935
  9.54342e+06,       211.307,        -0.812754,         8.714543, -0.009503,         0.000878, -0.003988,         0.010611
  9.54342e+06,       205.282,        -0.812754,         8.726872, -0.009503,         0.000878, -0.003339,         0.010611
  9.54342e+06,       199.465,        -0.813403,         8.714543, -0.009179,         0.000878, -0.003988,         0.010611
  9.54342e+06,       194.064,        -0.813079,         8.721681, -0.009503,         0.000554, -0.003663,         0.010935
  9.54342e+06,       189.286,        -0.812754,         8.726223, -0.009503,         0.000554, -0.003663,         0.010611
  9.54342e+06,       183.884,        -0.812754,         8.715841, -0.009503,         0.000878, -0.003663,         0.010935
  9.54342e+06,       178.898,        -0.812430,         8.726872, -0.009179,         0.000554, -0.003339,         0.011260
  9.54342e+06,       174.328,        -0.812754,         8.717139, -0.009179,         0.000554, -0.003663,         0.010611
        0.006666,       169.549,        -0.812754,         8.726872, -0.009179,         0.000554, -0.003663,         0.010611
        0.019998,       163.94,        -0.813079,         8.729143, -0.009503,         0.000878, -0.003663,         0.010611
        0.033330,       158.746,        -0.812754,         8.717788, -0.008854,         0.000554, -0.003663,         0.010286
        0.044440,       154.176,        -0.812754,         8.715516, -0.009179,         0.000230, -0.003339,         0.010611
        0.059994,       148.982,        -0.812430,         8.716490, -0.009179,         0.000878, -0.003663,         0.010611
        0.073326,       144.204,        -0.812754,         8.728494, -0.009179,         0.000878, -0.003988,         0.010935
        0.086658,       138.387,        -0.813079,         8.716165, -0.009179,         0.000230, -0.003339,         0.010286
        0.102212,       132.778,        -0.812430,         8.726872, -0.009503,         0.000878, -0.003663,         0.010611
        0.119988,       129.246,        -0.812754,         8.726872, -0.008854,         0.000554, -0.003663,         0.010935
        0.137764,       123.845,        -0.812754,         8.727196, -0.008854,         0.000230, -0.003663,         0.010935
        0.155540,       117.612,        -0.812430,         8.726547, -0.009503,         0.000554, -0.003663,         0.010611
        0.173316,       110.964,        -0.812754,         8.714219, -0.008854,         0.000878, -0.003663,         0.010611
        0.193314,       105.355,        -0.812754,         8.725898, -0.009179,         0.000554, -0.003663,         0.010611
        0.211090,        99.5379,        -0.813079,         8.724925, -0.009503,         0.000230, -0.003663,         0.010611
        0.231088,        90.3969,        -0.812754,         8.714543, -0.009179,         0.000230, -0.003663,         0.010611
        0.248864,        80.0095,        -0.812754,         8.725250, -0.009179,         0.000878, -0.003663,         0.010935
        0.268862,        72.115,        -0.812754,         8.713894, -0.009503,         0.000554, -0.003339,         0.010611
        0.286638,        66.7135,        -0.812754,         8.725250, -0.009503,         0.000878, -0.003339,         0.011260
        0.306636,        55.0795,        -0.813079,         8.714219, -0.009503,         0.000230, -0.003988,         0.010611
        0.324412,        50.5091,        -0.812754,         8.726547, -0.009179,         0.000878, -0.003663,         0.010611
        0.342188,        46.9773,        -0.812430,         8.726223, -0.009179,         0.000878, -0.003339,         0.010611
        0.359964,        43.0301,        -0.812430,         8.727845, -0.009179,         0.000554, -0.003339,         0.010611
        0.373296,        35.9666,        -0.812430,         8.716165, -0.009503,         0.000554, -0.003663,         0.010611
        0.379962,        22.2552,        -0.812754,         8.717139, -0.009503,         0.000554, -0.004312,         0.010286

File: 245C_4L_2.csv
Test One

April-01-19,3:25:22 PM

(e.g.) Strength test for 0.5 inch diameter specimen without anealling.

01/04/2019,3:25:22 PM
Deflection (in),Force (lbf),Strain0,Strain1,Strain2,Strain3,Strain4,Strain5
        0.002222,       -22.8784,        -0.813727,         8.646736, -0.009503,         0.000878, -0.003339,         0.010286
        0.008888,        39.2127,        -0.814376,         8.636354, -0.009827,         0.000878, -0.003663,         0.010611
        0.017776,       109.224,        -0.814701,         8.647710, -0.009503,         0.000878, -0.003663,         0.010611
        0.031108,       156.176,        -0.813727,         8.637652, -0.009827,         0.000554, -0.003663,         0.010611
        0.042218,       202.919,        -0.813727,         8.637328, -0.009503,         0.000554, -0.003988,         0.010611
        0.057772,       258.596,        -0.813727,         8.637652, -0.009827,         0.000554, -0.003663,         0.010611
        0.071104,       318.428,        -0.813403,         8.650305, -0.009827,         0.000554, -0.003663,         0.010611
        0.084436,       372.65,        -0.813727,         8.638950, -0.009503,         0.000878, -0.004312,         0.010286
        0.099990,       255.688,        -0.813727,         8.650630, -0.009827,         0.000878, -0.003663,         0.010935
        0.115544,       167.186,        -0.814052,         8.640572, -0.009503,         0.000554, -0.003988,         0.010611
        0.128876,        76.6076,        -0.813727,         8.640572, -0.009827,         0.000878, -0.003663,         0.010286
        0.144430,        60.1954,        -0.813727,         8.652252, -0.009503,         0.000878, -0.003663,         0.010935
        0.159984,        49.1847,        -0.813727,         8.644790, -0.009503,         0.000878, -0.003663,         0.010611
        0.173316,        34.019,        -0.814052,         8.640572, -0.009503,         0.000878, -0.003663,         0.010286
        0.188870,        25.9167,        -0.814052,         8.651603, -0.009503,         0.001203, -0.003663,         0.010935
        0.204424,        23.6315,        -0.813727,         8.652576, -0.009179,         0.000554, -0.003339,         0.011260
        0.217756,        21.554,        -0.814376,         8.640248, -0.009827,         0.000878, -0.003663,         0.010286
        0.233310,        13.6595,        -0.814052,         8.651603, -0.009503,         0.000878, -0.003988,         0.010935
        0.248864,        15.737,        -0.813727,         8.651927, -0.009503,         0.001203, -0.003339,         0.010935

File: 245C_7L_1.csv
Test One

April-01-19,3:14:14 PM

(e.g.) Strength test for 0.5 inch diameter specimen without anealling.

01/04/2019,3:14:14 PM
Deflection (in),Force (lbf),Strain0,Strain1,Strain2,Strain3,Strain4,Strain5
        0.004444,         1.454245,        -0.813727,         8.715192, -0.009503,         0.000554, -0.003988,         0.009962
        0.011110,        25.7609,        -0.813079,         8.718436, -0.009827,         0.000878, -0.003988,         0.010286
        0.019998,        60.6628,        -0.812754,         8.725250, -0.009827,         0.000554, -0.004312,         0.010286
        0.028886,       116.547,        -0.813079,         8.715841, -0.009827,         0.000554, -0.003988,         0.009962
        0.039996,       198.401,        -0.812754,         8.725250, -0.009503,         0.000554, -0.003663,         0.010286
        0.051106,       276.307,        -0.813079,         8.714219, -0.009827,         0.000230, -0.004312,         0.010286
        0.059994,       343.202,        -0.813403,         8.714219, -0.009827,         0.000554, -0.003988,         0.010286
        0.071104,       401.579,        -0.813403,         8.714219, -0.009503,         0.000554, -0.003988,         0.010286
        0.082214,       454.556,        -0.813079,         8.713894, -0.009827,         0.000554, -0.003663,         0.010286
        0.093324,       505.662,        -0.813403,         8.713245, -0.009827,         0.000554, -0.003988,         0.010286
        0.104434,       574.219,        -0.813403,         8.713245, -0.009503,         0.000878, -0.003988,         0.010286
        0.115544,       650.255,        -0.812754,         8.723627, -0.009827,         0.000554, -0.004312,         0.010286
        0.126654,       726.915,        -0.813079,         8.724276, -0.009503,         0.000554, -0.003988,         0.010611
        0.137764,       807.074,        -0.813079,         8.723627, -0.009503,         0.000554, -0.003988,         0.010286
        0.148874,       887.398,        -0.813403,         8.712597, -0.009827,         0.000878, -0.003988,         0.010286
        0.159984,       967.721,        -0.813727,         8.712272, -0.010152,         0.000230, -0.004312,         0.009962
        0.171094,      1041.49,        -0.814052,         8.712597, -0.009827,         0.000554, -0.004312,         0.009962
        0.184426,      1109.52,        -0.813403,         8.712921, -0.009503,         0.000878, -0.004312,         0.010611
        0.195536,      1180.01,        -0.813727,         8.712921, -0.009827,         0.000878, -0.004312,         0.010286
        0.206646,       129.012,        -0.813403,         8.723627, -0.009503,         0.000878, -0.003339,         0.010286
        0.217756,        19.1129,        -0.813079,         8.723627, -0.009503,         0.000878, -0.003988,         0.010611
        0.228866,         6.855729,        -0.813403,         8.712272, -0.009827,         0.000554, -0.003988,         0.010286
        0.242198,         4.570486,        -0.814376,         8.713245, -0.009827,         0.000554, -0.004312,         0.009962
        0.253308,         3.531739,        -0.813079,         8.722978, -0.009827,         0.000230, -0.003988,         0.010286
        0.264418,         2.700742,        -0.813403,         8.722978, -0.009827,         0.000554, -0.003663,         0.010286
        0.266640,         2.077493,        -0.813403,         8.711623, -0.009827,         0.000554, -0.003988,         0.009962

File: 245C_7L_2.csv
Test One

April-01-19,5:34:50 PM

(e.g.) Strength test for 0.5 inch diameter specimen without anealling.

01/04/2019,5:34:50 PM
Deflection (in),Force (lbf),Strain0,Strain1,Strain2,Strain3,Strain4,Strain5
        0.002222,        -0.025969,        -0.812430,         8.741471, -0.009503,         0.000230, -0.004312,         0.010286
        0.008888,         0.571311,        -0.812430,         8.730116, -0.009503,         0.000230, -0.004312,         0.009962
        0.022220,         0.571311,        -0.812430,         8.741471, -0.009179,         0.000554, -0.004312,         0.010286
        0.035552,         0.571311,        -0.812754,         8.740822, -0.009179,         0.000230, -0.003988,         0.010286
        0.051106,         0.155812,        -0.812754,         8.730440, -0.009179,         0.000230, -0.003988,         0.010286
        0.066660,         0.363561,        -0.812105,         8.730440, -0.009503,         0.000230, -0.004312,         0.009962
        0.082214,         7.427039,        -0.812105,         8.740822, -0.009179,        -0.000095, -0.004312,         0.009962
        0.097768,       221.201,        -0.812754,         8.740498, -0.009179,         0.000230, -0.004312,         0.009962
        0.115544,       542.589,        -0.812754,         8.730765, -0.009503,         0.000230, -0.003988,         0.009962
        0.131098,       762.712,        -0.813079,         8.740822, -0.009503,         0.000878, -0.004312,         0.010286
        0.148874,       905.327,        -0.812754,         8.729792, -0.009503,         0.000230, -0.004312,         0.009962
        0.164428,      1233.18,        -0.812754,         8.729792, -0.009179,         0.000230, -0.004312,         0.009962
        0.182204,      1520.05,        -0.812430,         8.741147, -0.008854,         0.000230, -0.003988,         0.010286
        0.199980,       443.493,        -0.812430,         8.740174, -0.009179,         0.000554, -0.003988,         0.010611
        0.217756,        38.7972,        -0.813079,         8.730116, -0.009503,         0.000554, -0.004312,         0.010286
        0.233310,         0.363561,        -0.813079,         8.730116, -0.009503,         0.000230, -0.004637,         0.009962
        0.251086,        -4.804204,        -0.812754,         8.729792, -0.008854,         0.000230, -0.003663,         0.009962
        0.268862,        -6.466198,        -0.812754,         8.740822, -0.009503,         0.000230, -0.003988,         0.010611
        0.286638,        -7.089447,        -0.812754,         8.741147, -0.009179,         0.000230, -0.003988,         0.010286

File: 245C_7L_3.csv
Test One,,,"Broke early, malformed layer",,,,
,,,,,,,
April-01-19,5:39:46 PM,,,,,,
,,,,,,,
(e.g.) Strength test for 0.5 inch diameter specimen without anealling.,,,,,,,
,,,,,,,
01/04/2019,5:39:46 PM,,,,,,
Deflection (in),Force (lbf),Strain0,Strain1,Strain2,Strain3,Strain4,Strain5
0.006666,0.753091,-0.813403,8.743093,-0.008854,0.000878,-0.003988,0.010286
0.015554,0.753091,-0.813403,8.743093,-0.009179,0.000554,-0.003988,0.010611
0.026664,0.753091,-0.813727,8.743418,-0.009179,0.000554,-0.003988,0.010286
0.037774,2.415086,-0.813403,8.742769,-0.009503,0.000554,-0.003988,0.009962
0.051106,84.2683,-0.813727,8.732387,-0.008854,0.000554,-0.003988,0.009638
0.062216,270.827,-0.813727,8.731738,-0.009827,-0.000095,-0.004312,0.010286
0.075548,527.605,-0.813727,8.742445,-0.009179,0.00023,-0.003988,0.010286
0.08888,767.556,-0.813727,8.743093,-0.008854,0.000554,-0.003663,0.009962
0.102212,59.7539,-0.813403,8.742769,-0.009503,0.00023,-0.003663,0.009962
0.115544,3.661582,-0.813403,8.742769,-0.008854,0.000554,-0.003663,0.010286
0.128876,-2.33718,-0.813727,8.742769,-0.009503,0.000554,-0.003663,0.010611
0.142208,-3.583676,-0.814052,8.732387,-0.009179,0.00023,-0.003988,0.009962
0.15554,-3.999175,-0.814052,8.732387,-0.009503,0.00023,-0.003988,0.010286
0.171094,-4.414674,-0.813727,8.732387,-0.009503,0.000554,-0.004312,0.009962

File: 245C_7L_4.csv
Test One

April-01-19,5:45:09 PM

(e.g.) Strength test for 0.5 inch diameter specimen without anealling.

01/04/2019,5:45:09 PM
Deflection (in),Force (lbf),Strain0,Strain1,Strain2,Strain3,Strain4,Strain5
        0.004444,         0.701154,        -0.815025,         8.737578, -0.009179,         0.000230, -0.004312,         0.009962
        0.011110,         0.908903,        -0.815025,         8.737902, -0.009503,         0.000554, -0.004637,         0.009962
        0.022220,         0.493405,        -0.814376,         8.748609, -0.008854,         0.000230, -0.003988,         0.010286
        0.033330,         2.570898,        -0.815025,         8.737902, -0.009503,         0.000230, -0.004312,         0.009962
        0.046662,        66.35,        -0.814376,         8.748933, -0.009179,         0.000230, -0.003988,         0.009962
        0.059994,       291.135,        -0.814376,         8.749582, -0.009503,        -0.000095, -0.003988,         0.009962
        0.073326,       574.92,        -0.814376,         8.749907, -0.009179,         0.000554, -0.004312,         0.009638
        0.086658,       908.094,        -0.814376,         8.739200, -0.009179,         0.000230, -0.004312,         0.009638
        0.102212,      1225.29,        -0.814701,         8.739200, -0.009179,         0.000554, -0.004312,         0.009638
        0.115544,      1452.33,        -0.814052,         8.748933, -0.009179,         0.000554, -0.004312,         0.009962
        0.131098,       549.367,        -0.814052,         8.738551, -0.008854,         0.000230, -0.004312,         0.009962
        0.144430,        52.0152,        -0.814376,         8.748284, -0.009179,         0.000554, -0.003988,         0.009962
        0.159984,         4.025144,        -0.813727,         8.746338, -0.009179,         0.000878, -0.003663,         0.010286
        0.173316,        -2.129431,        -0.814376,         8.737254, -0.009503,         0.000230, -0.004637,         0.009962
        0.188870,        -3.583676,        -0.814701,         8.748284, -0.009503,         0.000554, -0.004312,         0.010286