Folder: mech306_capstone/data/245C

File: 245C_2L_2.csv
Test One

April-01-19,4:44:08 PM

(e.g.) Strength test for 0.5 inch diameter specimen without anealling.

01/04/2019,4:44:08 PM
Deflection (in),Force (lbf),Strain0,Strain1,Strain2,Strain3,Strain4,Strain5
        0.004444,         0.207749,        -0.812754,         8.608129, -0.009503,         0.001203, -0.003339,         0.010935
        0.011110,         1.246496,        -0.812754,         8.607480, -0.009503,         0.000554, -0.003339,         0.010935
        0.022220,         1.661995,        -0.812430,         8.620782, -0.009179,         0.001203, -0.003015,         0.011260
        0.035552,         2.492992,        -0.813079,         8.608453, -0.009503,         0.001203, -0.003339,         0.011260
        0.046662,         3.116240,        -0.812754,         8.621430, -0.009179,         0.001203, -0.003015,         0.011260
        0.059994,         3.531739,        -0.812754,         8.620782, -0.009503,         0.000878, -0.003339,         0.011584
        0.073326,         4.985984,        -0.812754,         8.621106, -0.009503,         0.000878, -0.003015,         0.011584
        0.086658,         5.816982,        -0.812105,         8.620457, -0.009179,         0.000878, -0.002690,         0.010935
        0.099990,         6.232481,        -0.812105,         8.607155, -0.009179,         0.000878, -0.003015,         0.010611
        0.115544,         6.647979,        -0.812430,         8.607804, -0.009503,         0.000878, -0.003663,         0.010935
        0.128876,         6.855729,        -0.812430,         8.619159, -0.009503,         0.000878, -0.003339,         0.011260
        0.142208,         7.063478,        -0.812105,         8.606507, -0.009503,         0.000554, -0.003015,         0.011260
        0.157762,         7.271227,        -0.812105,         8.619808, -0.009503,         0.001527, -0.003015,         0.011584
        0.171094,         8.102224,        -0.812430,         8.605858, -0.009503,         0.000878, -0.003339,         0.011260
        0.186648,         9.764219,        -0.812105,         8.619808, -0.009503,         0.000878, -0.003015,         0.011260
        0.199980,        35.1096,        -0.812105,         8.619484, -0.009179,         0.000878, -0.003015,         0.010935
        0.215534,       159.967,        -0.812105,         8.607480, -0.009503,         0.000554, -0.003339,         0.011260
        0.228866,       296.458,        -0.812105,         8.621106, -0.008854,         0.001527, -0.003015,         0.011260
        0.244420,       429.833,        -0.812105,         8.609102, -0.009503,         0.000878, -0.003339,         0.010935
        0.257752,       563.208,        -0.811781,         8.620782, -0.008854,         0.001203, -0.003015,         0.011260
        0.273306,        93.2795,        -0.812105,         8.609102, -0.009179,         0.000878, -0.003339,         0.011260
        0.286638,        18.0742,        -0.811781,         8.620782, -0.009179,         0.000878, -0.002690,         0.011260
        0.302192,        10.5952,        -0.812105,         8.608129, -0.009179,         0.000878, -0.003663,         0.011260
        0.315524,         9.556470,        -0.811781,         8.619808, -0.009503,         0.000878, -0.003015,         0.010935
        0.331078,         9.348721,        -0.812105,         8.607480, -0.009179,         0.000878, -0.003015,         0.011260
        0.344410,         9.140971,        -0.812430,         8.619159, -0.009503,         0.000878, -0.003015,         0.011260
        0.359964,         8.933222,        -0.812105,         8.611049, -0.009179,         0.000878, -0.003015,         0.011260
        0.373296,         8.725472,        -0.812430,         8.605858, -0.009503,         0.000878, -0.003015,         0.010935

File: 245C_4L_3.csv
Test One

April-01-19,4:27:28 PM

(e.g.) Strength test for 0.5 inch diameter specimen without anealling.

01/04/2019,4:27:28 PM
Deflection (in),Force (lbf),Strain0,Strain1,Strain2,Strain3,Strain4,Strain5
        0.004444,        -0.259687,        -0.812430,         8.696050, -0.009179,         0.000554, -0.004312,         0.009962
        0.013332,         0.233718,        -0.812105,         8.685668, -0.009503,         0.000554, -0.003663,         0.010611
        0.022220,         0.649217,        -0.812105,         8.695726, -0.009827,         0.000878, -0.003663,         0.010611
        0.033330,         1.064715,        -0.812105,         8.696050, -0.009503,         0.000878, -0.003663,         0.010935
        0.046662,         1.480214,        -0.812430,         8.685993, -0.009827,         0.000554, -0.003988,         0.010286
        0.057772,         2.103462,        -0.812430,         8.695726, -0.009503,         0.000878, -0.003988,         0.010935
        0.071104,         2.934460,        -0.812105,         8.696050, -0.009503,         0.000878, -0.003663,         0.010611
        0.084436,         3.973206,        -0.812754,         8.685668, -0.009503,         0.000554, -0.004312,         0.010611
        0.097768,         4.388705,        -0.812430,         8.685993, -0.009827,         0.000878, -0.003663,         0.010286
        0.111100,         4.804204,        -0.812754,         8.685668, -0.009827,         0.000230, -0.003663,         0.010286
        0.124432,         5.011953,        -0.812754,         8.685993, -0.009503,         0.000230, -0.003663,         0.010611
        0.137764,         5.219702,        -0.812754,         8.686642, -0.009503,         0.000554, -0.003663,         0.010286
        0.151096,         5.427452,        -0.812430,         8.688913, -0.009503,         0.000878, -0.003663,         0.010611
        0.164428,         5.842950,        -0.812754,         8.697997, -0.009179,         0.000878, -0.003663,         0.010286
        0.177760,         6.881697,        -0.812754,         8.697673, -0.009827,         0.000554, -0.003663,         0.010611
        0.191092,         9.582438,        -0.813079,         8.697673, -0.009503,         0.000554, -0.003663,         0.010611
        0.204424,       106.601,        -0.812430,         8.697348, -0.009503,         0.000554, -0.003988,         0.010611
        0.217756,       332.009,        -0.812430,         8.697024, -0.009503,         0.000878, -0.003663,         0.010611
        0.231088,       595.02,        -0.812430,         8.696375, -0.009827,         0.000878, -0.003988,         0.010611
        0.244420,       855.74,        -0.812430,         8.696375, -0.009503,         0.000554, -0.003663,         0.009962
        0.257752,      1101.63,        -0.813079,         8.685020, -0.009179,         0.000554, -0.003663,         0.010286
        0.271084,       341.566,        -0.812754,         8.684695, -0.009503,         0.000878, -0.003988,         0.010286
        0.286638,        39.9138,        -0.813079,         8.685020, -0.009503,         0.000878, -0.004312,         0.010286
        0.299970,        11.4522,        -0.812754,         8.695402, -0.009503,         0.000554, -0.003663,         0.010611
        0.313302,         7.712695,        -0.812754,         8.695077, -0.009827,         0.000878, -0.003988,         0.010286
        0.326634,         6.881697,        -0.812430,         8.695402, -0.009179,         0.000554, -0.003663,         0.010611
        0.337744,         6.466198,        -0.812754,         8.695402, -0.009179,         0.000554, -0.003663,         0.010286
        0.342188,         5.219702,        -0.812754,         8.697673, -0.009503,         0.000554, -0.003663,         0.010286
        0.348854,         5.427452,        -0.812430,         8.686642, -0.009827,         0.000878, -0.003663,         0.010286
        0.355520,         5.427452,        -0.811456,         8.696699, -0.009503,         0.000878, -0.003988,         0.010286
        0.362186,         5.427452,        -0.812754,         8.685668, -0.009503,         0.000878, -0.004312,         0.010286
        0.371074,         5.219702,        -0.813079,         8.685344, -0.009503,         0.000554, -0.004312,         0.009962
        0.382184,         5.011953,        -0.812754,         8.685344, -0.009503,         0.000230, -0.004312,         0.009962
        0.384406,         4.596455,        -0.813079,         8.684695, -0.010152,         0.000554, -0.004312,         0.009962

File: 245C_4L_5.csv
Test One

April-01-19,4:53:30 PM

(e.g.) Strength test for 0.5 inch diameter specimen without anealling.

01/04/2019,4:53:30 PM
Deflection (in),Force (lbf),Strain0,Strain1,Strain2,Strain3,Strain4,Strain5
        0.002222,         0.233718,        -0.813079,         8.762884, -0.009827,         0.000554, -0.003988,         0.009962
        0.011110,         0.856966,        -0.813079,         8.763208, -0.009503,         0.000554, -0.003988,         0.010611
        0.022220,         1.272465,        -0.813079,         8.752826, -0.009827,         0.000554, -0.004312,         0.009962
        0.033330,         1.480214,        -0.813079,         8.762560, -0.009827,         0.000230, -0.003988,         0.009962
        0.046662,         4.596455,        -0.812754,         8.752178, -0.010152,         0.000878, -0.003988,         0.009638
        0.059994,       124.468,        -0.813079,         8.752502, -0.010152,         0.000230, -0.004637,         0.009962
        0.073326,       373.767,        -0.813079,         8.762235, -0.009503,         0.000554, -0.004312,         0.009962
        0.086658,       626.182,        -0.813079,         8.762235, -0.009503,         0.000554, -0.003663,         0.009962
        0.099990,       869.571,        -0.813079,         8.761586, -0.009827,         0.000230, -0.004312,         0.009962
        0.115544,      1035.14,        -0.813403,         8.752502, -0.009827,         0.000230, -0.003988,         0.009962
        0.128876,       118.443,        -0.812754,         8.762235, -0.009827,         0.000554, -0.004312,         0.010286
        0.144430,        16.4382,        -0.813403,         8.753151, -0.009827,         0.000230, -0.004312,         0.009638
        0.157762,         5.842950,        -0.813403,         8.762560, -0.010152,         0.000554, -0.004312,         0.009962

File: 245C_4L_6.csv
Test One

April-01-19,5:10:40 PM

(e.g.) Strength test for 0.5 inch diameter specimen without anealling.

01/04/2019,5:10:40 PM
Deflection (in),Force (lbf),Strain0,Strain1,Strain2,Strain3,Strain4,Strain5
        0.002222,        -0.441467,        -0.812105,         8.726223, -0.009503,         0.000554, -0.004312,         0.010286
        0.011110,        -0.025969,        -0.812105,         8.726872, -0.009503,         0.000554, -0.004312,         0.010286
        0.019998,         0.519373,        -0.812105,         8.726547, -0.009503,         0.000230, -0.004312,         0.010286
        0.028886,         2.181368,        -0.812430,         8.725574, -0.009503,         0.000230, -0.003988,         0.010611
        0.039996,         7.998350,        -0.812105,         8.725574, -0.009827,         0.000230, -0.004312,         0.009962
        0.051106,       114.366,        -0.812105,         8.725574, -0.009503,         0.000554, -0.004312,         0.009962
        0.064438,       241.301,        -0.812430,         8.726547, -0.009827,         0.000554, -0.004637,         0.009962
        0.075548,       403.345,        -0.812430,         8.736605, -0.009503,         0.000554, -0.003663,         0.010286
        0.088880,       579.101,        -0.812430,         8.726223, -0.009503,         0.000554, -0.004312,         0.009962
        0.099990,       750.495,        -0.812105,         8.736605, -0.009503,         0.000878, -0.004312,         0.009962
        0.113322,       811.89,        -0.812430,         8.725898, -0.009503,         0.000878, -0.004312,         0.009962
        0.124432,       808.611,        -0.812105,         8.736605, -0.009179,         0.000230, -0.003663,         0.010286
        0.137764,       852.871,        -0.812105,         8.737254, -0.009827,         0.000878, -0.004312,         0.010286
        0.148874,       636.025,        -0.812430,         8.726223, -0.009503,         0.000554, -0.004312,         0.009962
        0.162206,       770.854,        -0.812105,         8.737254, -0.009503,        -0.000095, -0.004637,         0.010286
        0.175538,       948.768,        -0.812105,         8.726872, -0.009503,         0.000878, -0.004637,         0.009962
        0.188870,       163.603,        -0.811781,         8.727196, -0.009827,         0.000230, -0.004312,         0.010286
        0.199980,        22.5408,        -0.812105,         8.726547, -0.009179,         0.000230, -0.004312,         0.009962
        0.213312,         8.621598,        -0.811781,         8.737578, -0.009503,         0.000230, -0.004312,         0.010286
        0.226644,         6.959603,        -0.812105,         8.738227, -0.009503,         0.000554, -0.003988,         0.010286
        0.239976,         6.544105,        -0.812105,         8.726547, -0.009503,         0.000554, -0.004637,         0.009962
        0.251086,         6.544105,        -0.812105,         8.725898, -0.009503,         0.000878, -0.004637,         0.009962
        0.264418,         6.544105,        -0.812105,         8.736280, -0.009503,         0.000554, -0.004312,         0.009962

File: 245C_4L_7.csv
Test One,,,Broke weird (clamping force too high),,,,
,,,,,,,
April-01-19,5:20:27 PM,,,,,,
,,,,,,,
(e.g.) Strength test for 0.5 inch diameter specimen without anealling.,,,,,,,
,,,,,,,
01/04/2019,5:20:27 PM,,,,,,
Deflection (in),Force (lbf),Strain0,Strain1,Strain2,Strain3,Strain4,Strain5
0.006666,0.753091,-0.811781,8.728169,-0.009503,0.000554,-0.003988,0.009962
0.015554,0.960841,-0.811781,8.727845,-0.009827,0.000878,-0.004637,0.009962
0.024442,0.960841,-0.811781,8.726872,-0.009503,0.00023,-0.004637,0.009962
0.037774,1.16859,-0.811781,8.726872,-0.009827,0.000554,-0.004312,0.009962
0.048884,1.376339,-0.811781,8.738227,-0.009827,0.00023,-0.004312,0.010611
0.062216,1.584089,-0.811456,8.727196,-0.009179,0.000554,-0.003988,0.009962
0.073326,1.791838,-0.811781,8.726223,-0.009503,0.000878,-0.004961,0.009962
0.086658,1.999588,-0.811781,8.737254,-0.009503,0.00023,-0.004312,0.010286
0.09999,2.415086,-0.811781,8.737578,-0.009503,0.000554,-0.004312,0.010286
0.113322,3.453833,-0.811456,8.737902,-0.009827,0.00023,-0.004312,0.010286
0.126654,4.284831,-0.811456,8.737578,-0.009503,0.00023,-0.004637,0.009962
0.139986,9.063066,-0.811456,8.738551,-0.009503,0.000554,-0.003988,0.010286
0.153318,94.0325,-0.811456,8.737902,-0.009827,0.000878,-0.003988,0.010286
0.16665,251.507,-0.811456,8.738551,-0.009503,0.000554,-0.003663,0.010286
0.179982,441.805,-0.811456,8.738551,-0.009827,0.000878,-0.004312,0.010286
0.193314,658.488,-0.811456,8.738551,-0.009503,0.000554,-0.003663,0.010286
0.206646,96.3178,-0.811456,8.738227,-0.009503,0.000554,-0.003663,0.010286
0.219978,15.2955,-0.812105,8.737578,-0.010152,0.000554,-0.004312,0.009962
0.23331,7.401071,-0.811781,8.727521,-0.009503,0.000554,-0.004312,0.009962
0.246642,6.570073,-0.811781,8.727845,-0.009503,0.00023,-0.004637,0.010611

File: 245C_4L_8.csv
Test One

April-01-19,5:26:59 PM

(e.g.) Strength test for 0.5 inch diameter specimen without anealling.

01/04/2019,5:26:59 PM
Deflection (in),Force (lbf),Strain0,Strain1,Strain2,Strain3,Strain4,Strain5
        0.002222,         0.259687,        -0.812430,         8.739200, -0.009503,         0.000878, -0.004312,         0.010286
        0.008888,         0.467436,        -0.812430,         8.738227, -0.009503,         0.000878, -0.004312,         0.009962
        0.017776,         0.467436,        -0.813079,         8.727845, -0.009503,         0.000230, -0.004312,         0.009962
        0.028886,         0.259687,        -0.812430,         8.739200, -0.009503,         0.000554, -0.003988,         0.010286
        0.039996,         0.467436,        -0.812430,         8.738876, -0.009503,         0.000554, -0.003988,         0.010286
        0.051106,         0.882935,        -0.813079,         8.730765, -0.009503,         0.000230, -0.003988,         0.009962
        0.064438,         2.960428,        -0.812754,         8.728818, -0.009503,         0.000878, -0.004312,         0.010286
        0.075548,        72.141,        -0.812754,         8.739200, -0.009179,         0.000230, -0.004312,         0.010286
        0.088880,       258.284,        -0.813079,         8.728818, -0.009503,         0.000554, -0.003988,         0.009962
        0.099990,       449.206,        -0.812754,         8.727845, -0.009503,         0.000230, -0.004312,         0.010286
        0.113322,       644.075,        -0.812430,         8.739525, -0.009503,         0.000554, -0.004312,         0.010286
        0.126654,       829.409,        -0.812754,         8.728494, -0.009503,         0.000230, -0.003988,         0.009962
        0.137764,       217.358,        -0.812430,         8.739525, -0.009503,         0.000230, -0.003988,         0.010286
        0.151096,        20.4114,        -0.812430,         8.740174, -0.009179,         0.000554, -0.003988,         0.010286
        0.164428,         1.298433,        -0.812430,         8.729467, -0.009503,         0.000230, -0.004312,         0.010286
        0.175538,        -1.584089,        -0.812105,         8.729467, -0.009503,         0.000554, -0.003988,         0.009962
        0.188870,        -2.622836,        -0.812105,         8.740174, -0.009179,         0.000554, -0.003988,         0.010286
        0.202202,        -3.453833,        -0.812754,         8.740822, -0.009179,         0.000230, -0.004312,         0.009962
        0.215534,        -4.077081,        -0.812754,         8.732063, -0.009503,         0.000230, -0.004312,         0.010286

File: 245C_7L_5.csv
Test One

April-01-19,5:51:01 PM

(e.g.) Strength test for 0.5 inch diameter specimen without anealling.

01/04/2019,5:51:01 PM
Deflection (in),Force (lbf),Strain0,Strain1,Strain2,Strain3,Strain4,Strain5
        0.002222,        -0.025969,        -0.814052,         8.748609, -0.009179,         0.000230, -0.003988,         0.009962
        0.008888,         0.597279,        -0.814376,         8.738551, -0.009179,         0.000230, -0.004312,         0.009638
        0.015554,         1.012778,        -0.814701,         8.737578, -0.008854,         0.000230, -0.003988,         0.009638
        0.026664,         1.428277,        -0.814376,         8.747960, -0.008854,         0.000230, -0.003988,         0.009962
        0.037774,         1.843776,        -0.814052,         8.748609, -0.008854,         0.000230, -0.003988,         0.009962
        0.048884,         2.674773,        -0.814052,         8.738227, -0.009179,         0.000230, -0.004312,         0.009962
        0.062216,         4.544517,        -0.814052,         8.748933, -0.009179,         0.000230, -0.003988,         0.010286
        0.075548,        35.2914,        -0.814376,         8.737902, -0.009503,        -0.000095, -0.003988,         0.009962
        0.086658,        96.993,        -0.815025,         8.738227, -0.009503,         0.000230, -0.004312,         0.009638
        0.099990,       213.333,        -0.814052,         8.748609, -0.008854,         0.000554, -0.003988,         0.009962
        0.113322,       427.107,        -0.814701,         8.748609, -0.009179,         0.000230, -0.003988,         0.009962
        0.126654,       696.142,        -0.814701,         8.748609, -0.008854,         0.000230, -0.003663,         0.009638
        0.139986,       986.061,        -0.814701,         8.748609, -0.009179,         0.000230, -0.004312,         0.009962
        0.153318,      1261.46,        -0.814701,         8.738227, -0.008854,         0.000230, -0.003988,         0.009638
        0.166650,      1464.72,        -0.814701,         8.737902, -0.008854,         0.000230, -0.003988,         0.009962
        0.177760,      1323.75,        -0.815025,         8.736929, -0.009179,        -0.000095, -0.004312,         0.009962
        0.191092,       833.61,        -0.815025,         8.736929, -0.009503,         0.000230, -0.004312,         0.009962
        0.204424,      1112.28,        -0.814701,         8.736929, -0.009179,         0.000230, -0.004637,         0.009962
        0.217756,       643.582,        -0.814376,         8.736605, -0.009179,         0.000554, -0.004312,         0.009962
        0.231088,       884.427,        -0.814701,         8.736605, -0.008854,         0.000230, -0.004312,         0.009962
        0.246642,       760.337,        -0.814701,         8.736929, -0.008854,         0.000230, -0.004312,         0.009962
        0.257752,       709.646,        -0.814376,         8.736280, -0.009179,         0.000230, -0.004312,         0.009962
        0.271084,       694.272,        -0.814376,         8.747311, -0.008854,         0.000230, -0.003988,         0.010286
        0.284416,       704.452,        -0.814701,         8.736605, -0.008854,        -0.000095, -0.004312,         0.009962
        0.295526,       621.352,        -0.814376,         8.746987, -0.008854,         0.000230, -0.003988,         0.010286
        0.308858,       621.56,        -0.814701,         8.736929, -0.008854,         0.000230, -0.004637,         0.009962
        0.319968,       621.145,        -0.814701,         8.746662, -0.008854,         0.000554, -0.003988,         0.009962
        0.333300,       579.802,        -0.815025,         8.736280, -0.009503,         0.000230, -0.003988,         0.009313
        0.344410,       548.225,        -0.814701,         8.747636, -0.008854,         0.000230, -0.003663,         0.010286
        0.355520,       507.506,        -0.815349,         8.736605, -0.009179,         0.000554, -0.003988,         0.009962
        0.368852,       472.812,        -0.815025,         8.747636, -0.008854,         0.000230, -0.003988,         0.009962

File: 245C_13L_1.csv
Test One

April-01-19,3:07:01 PM

(e.g.) Strength test for 0.5 inch diameter specimen without anealling.

01/04/2019,3:07:01 PM
Deflection (in),Force (lbf),Strain0,Strain1,Strain2,Strain3,Strain4,Strain5
        0.002222,         0.311624,        -0.813079,         8.746338, -0.009503,        -0.000095, -0.004637,         0.009313
        0.011110,         0.934872,        -0.813727,         8.746662, -0.009827,         0.000554, -0.004961,         0.009313
        0.019998,         1.350371,        -0.813079,         8.756395, -0.009503,         0.000230, -0.004637,         0.009962
        0.031108,         3.220115,        -0.813403,         8.746662, -0.010152,         0.000554, -0.004637,         0.009638
        0.042218,         3.843363,        -0.813079,         8.756395, -0.009827,         0.000554, -0.004312,         0.009313
        0.053328,         4.466611,        -0.813403,         8.745689, -0.009827,         0.000230, -0.004637,         0.009638
        0.066660,         5.089859,        -0.812754,         8.755746, -0.009503,         0.000554, -0.004312,         0.009962
        0.079992,       164.434,        -0.813403,         8.756071, -0.009827,         0.000554, -0.003988,         0.009962
        0.093324,       622.521,        -0.813079,         8.756395, -0.009503,         0.000230, -0.004312,         0.009638
        0.106656,      1122.02,        -0.813403,         8.745364, -0.009827,         0.000554, -0.004312,         0.009962
        0.117766,      1610.51,        -0.813727,         8.745689, -0.009827,         0.000554, -0.004637,         0.009962
        0.131098,      2048.2,        -0.813403,         8.745040, -0.009503,         0.000230, -0.004312,         0.009638
        0.144430,      2336.71,        -0.813403,         8.746662, -0.009827,         0.000554, -0.004637,         0.009638
        0.157762,      2552.27,        -0.813403,         8.745364, -0.009827,         0.000230, -0.004637,         0.009962
        0.173316,       448.635,        -0.813727,         8.746338, -0.009503,         0.000230, -0.004637,         0.009638
        0.186648,        55.3652,        -0.813403,         8.746338, -0.009827,         0.000230, -0.004637,         0.009638
        0.199980,        14.8541,        -0.813727,         8.746662, -0.009503,         0.000230, -0.004637,         0.009638
        0.213312,         9.037097,        -0.813079,         8.755746, -0.009827,        -0.000095, -0.004312,         0.009638
        0.226644,         7.375102,        -0.813727,         8.755746, -0.009827,         0.000230, -0.004312,         0.009962
        0.239976,         6.544105,        -0.813403,         8.746013, -0.009827,         0.000230, -0.004312,         0.009962
        0.255530,         6.128606,        -0.813403,         8.746338, -0.009827,         0.000554, -0.004637,         0.009638
        0.268862,         5.920856,        -0.813727,         8.756395, -0.009827,         0.000554, -0.004312,         0.010286