Folder: mech306_capstone/data/265C

File: 265C_4L_3.csv
Test One

April-02-19,11:00:23 AM

(e.g.) Strength test for 0.5 inch diameter specimen without anealling.

02/04/2019,11:00:23 AM
Deflection (in),Force (lbf),Strain0,Strain1,Strain2,Strain3,Strain4,Strain5
        0.002222,        -0.623248,        -0.813079,         8.743742, -0.010801,         0.000878, -0.004637,         0.009962
        0.006666,        -0.415499,        -0.813403,         8.743093, -0.010801,         0.000554, -0.004961,         0.009638
        0.015554,        -0.415499,        -0.813727,         8.742769, -0.010476,         0.000554, -0.004312,         0.010286
        0.024442,        -0.415499,        -0.813079,         8.732712, -0.010476,         0.000554, -0.004637,         0.010286
        0.035552,        -0.415499,        -0.813079,         8.744067, -0.010476,         0.000878, -0.004312,         0.010286
        0.046662,         1.272465,        -0.813079,         8.744067, -0.010801,         0.000554, -0.004637,         0.010286
        0.057772,         1.687963,        -0.813403,         8.744391, -0.010801,         0.000878, -0.004312,         0.010286
        0.068882,         1.895713,        -0.813403,         8.733036, -0.010476,         0.000878, -0.004961,         0.010286
        0.082214,        37.6286,        -0.813079,         8.744391, -0.010152,         0.000554, -0.004312,         0.010286
        0.093324,       184.715,        -0.813727,         8.744067, -0.010476,         0.000878, -0.004312,         0.010611
        0.104434,       394.75,        -0.813403,         8.732712, -0.010476,         0.000878, -0.004312,         0.009962
        0.117766,       623.69,        -0.813727,         8.743742, -0.010152,         0.000878, -0.004312,         0.010611
        0.128876,       856.764,        -0.813403,         8.742445, -0.010476,         0.000878, -0.004312,         0.010286
        0.142208,      1082.16,        -0.813727,         8.732063, -0.010801,         0.000554, -0.004312,         0.009962
        0.153318,      1292.81,        -0.813403,         8.743742, -0.010152,         0.000878, -0.004312,         0.010286
        0.164428,       997.74,        -0.813403,         8.743742, -0.010476,         0.000878, -0.004637,         0.010611
        0.177760,       103.901,        -0.813403,         8.744391, -0.010476,         0.000878, -0.004312,         0.010611
        0.188870,        15.6072,        -0.813727,         8.732712, -0.010152,         0.000878, -0.004961,         0.009962
        0.202202,         5.427452,        -0.813079,         8.744716, -0.010152,         0.000554, -0.004637,         0.009962
        0.213312,         3.765457,        -0.813403,         8.733036, -0.010476,         0.000230, -0.004637,         0.009962
        0.215534,         3.142209,        -0.813403,         8.733685, -0.010152,         0.000878, -0.004637,         0.009962

File: 265C_7L_2.csv
Test One

April-02-19,10:12:40 AM

(e.g.) Strength test for 0.5 inch diameter specimen without anealling.

02/04/2019,10:12:40 AM
Deflection (in),Force (lbf),Strain0,Strain1,Strain2,Strain3,Strain4,Strain5
        0.002222,         0.103875,        -0.811456,         8.736605, -0.009827,         0.000554, -0.003988,         0.010286
        0.008888,         0.519373,        -0.811456,         8.736280, -0.010152,         0.000878, -0.004312,         0.010611
        0.017776,         0.727123,        -0.811132,         8.735956, -0.010152,         0.000878, -0.003663,         0.010611
        0.028886,         1.142621,        -0.811456,         8.725574, -0.010476,         0.000878, -0.004312,         0.010611
        0.042218,         1.765869,        -0.811456,         8.735631, -0.009827,         0.000878, -0.003988,         0.010935
        0.055550,         2.389117,        -0.811456,         8.735956, -0.009827,         0.000878, -0.003988,         0.010611
        0.068882,         2.804616,        -0.811456,         8.725898, -0.010152,         0.000878, -0.004312,         0.010611
        0.084436,         3.012366,        -0.811456,         8.726872, -0.010152,         0.000554, -0.004312,         0.010611
        0.097768,        54.742,        -0.811456,         8.735631, -0.010152,         0.000554, -0.003988,         0.010611
        0.113322,       252.727,        -0.811456,         8.725250, -0.009827,         0.000878, -0.003988,         0.010286
        0.126654,       556.041,        -0.811132,         8.736605, -0.010152,         0.000878, -0.003988,         0.010611
        0.142208,       871.005,        -0.811456,         8.725898, -0.010152,         0.000878, -0.004312,         0.010286
        0.155540,      1205.41,        -0.811132,         8.736605, -0.009827,         0.001203, -0.004312,         0.010611
        0.171094,      1551.3,        -0.811456,         8.734334, -0.009827,         0.000554, -0.004312,         0.010935
        0.184426,      1885.7,        -0.811456,         8.726872, -0.009827,         0.000878, -0.003988,         0.010611
        0.199980,      1316.06,        -0.811456,         8.737902, -0.010152,         0.000878, -0.003663,         0.010611
        0.215534,       146.359,        -0.811456,         8.728169, -0.009827,         0.000878, -0.004312,         0.010611
        0.228866,        23.3718,        -0.811456,         8.728494, -0.009827,         0.000878, -0.003988,         0.010611
        0.244420,         7.375102,        -0.811132,         8.739200, -0.009827,         0.000554, -0.004312,         0.010611
        0.259974,         4.051112,        -0.811132,         8.739849, -0.009827,         0.000878, -0.003988,         0.010611

File: 265C_13L_1.csv
Test One

April-02-19,9:42:04 AM

(e.g.) Strength test for 0.5 inch diameter specimen without anealling.

02/04/2019,9:42:04 AM
Deflection (in),Force (lbf),Strain0,Strain1,Strain2,Strain3,Strain4,Strain5
        0.002222,        -1.064715,        -0.808861,         8.733036, -0.009827,         0.000878, -0.004312,         0.010611
        0.008888,        -0.649217,        -0.808861,         8.732712, -0.009503,         0.000878, -0.003988,         0.010611
        0.019998,        -0.025969,        -0.809186,         8.722005, -0.010152,         0.000878, -0.003988,         0.010286
        0.028886,         0.311624,        -0.809186,         8.721681, -0.009827,         0.000554, -0.003988,         0.010611
        0.042218,         0.311624,        -0.809186,         8.733036, -0.009503,         0.000878, -0.003988,         0.010611
        0.053328,         2.389117,        -0.809834,         8.722005, -0.010152,         0.000878, -0.003988,         0.010611
        0.066660,       194.973,        -0.809186,         8.733036, -0.009503,         0.000878, -0.003663,         0.010611
        0.079992,       579.725,        -0.809510,         8.733036, -0.009503,         0.000554, -0.004312,         0.010935
        0.093324,      1015.77,        -0.809186,         8.732712, -0.010152,         0.000878, -0.004312,         0.010935
        0.106656,      1442.8,        -0.809186,         8.733036, -0.009503,         0.000878, -0.003663,         0.010935
        0.119988,      1794.42,        -0.809510,         8.722654, -0.009827,         0.000878, -0.003988,         0.010611
        0.135542,       969.053,        -0.809510,         8.722654, -0.010152,         0.000554, -0.004312,         0.010611
        0.148874,       111.665,        -0.809510,         8.734009, -0.009827,         0.000878, -0.004312,         0.010935
        0.162206,        12.5688,        -0.809510,         8.733685, -0.009503,         0.000878, -0.003988,         0.010935
        0.175538,        -1.480214,        -0.809510,         8.722978, -0.009827,         0.001203, -0.003988,         0.010935
        0.191092,        -4.596455,        -0.809510,         8.723627, -0.010152,         0.000554, -0.003663,         0.011260

File: 265C_13L_2.csv
Test One,,,Slight defect on layer,,,,
,,,,,,,
April-02-19,9:47:14 AM,,,,,,
,,,,,,,
(e.g.) Strength test for 0.5 inch diameter specimen without anealling.,,,,,,,
,,,,,,,
02/04/2019,9:47:14 AM,,,,,,
Deflection (in),Force (lbf),Strain0,Strain1,Strain2,Strain3,Strain4,Strain5
0.002222,0.753091,-0.809186,8.726872,-0.009827,0.000554,-0.004637,0.010286
0.01111,0.960841,-0.808861,8.736605,-0.010152,0.000878,-0.003988,0.010935
0.02222,0.960841,-0.808861,8.737578,-0.009503,0.000554,-0.004312,0.010286
0.03333,1.584089,-0.808861,8.737254,-0.009827,0.000878,-0.004637,0.010611
0.046662,1.999588,-0.808861,8.736929,-0.009827,0.000878,-0.003988,0.010611
0.059994,1.999588,-0.809186,8.727521,-0.010152,0.000554,-0.004312,0.010611
0.073326,28.5915,-0.80951,8.727845,-0.009827,0.000554,-0.004637,0.010611
0.086658,238.211,-0.808861,8.738551,-0.009827,0.000554,-0.004637,0.010935
0.09999,561.676,-0.809186,8.737902,-0.009827,0.000878,-0.003988,0.010611
0.115544,253.584,-0.809186,8.728494,-0.009827,0.000554,-0.004312,0.010286
0.128876,26.3063,-0.80951,8.738551,-0.009827,0.000878,-0.003988,0.010935
0.14443,-0.129843,-0.80951,8.728818,-0.009827,0.000554,-0.004312,0.010286
0.157762,-4.284831,-0.809186,8.739525,-0.009827,0.000554,-0.003663,0.010611
0.173316,-5.323577,-0.809186,8.73044,-0.010152,0.000878,-0.003988,0.010611
0.186648,-5.739076,-0.808861,8.740822,-0.010152,0.000878,-0.003988,0.010611
0.202202,-6.154574,-0.808861,8.73044,-0.009827,0.00023,-0.004312,0.010611
0.21109,-6.362324,-0.808861,8.741471,-0.009827,0.000878,-0.003663,0.010935

File: 265C_13L_5.csv
Test One,,,Malformed layer (some walls not adhered_,,,,
,,,,,,,
April-02-19,11:33:54 AM,,,,,,
,,,,,,,
(e.g.) Strength test for 0.5 inch diameter specimen without anealling.,,,,,,,
,,,,,,,
02/04/2019,11:33:54 AM,,,,,,
Deflection (in),Force (lbf),Strain0,Strain1,Strain2,Strain3,Strain4,Strain5
0.002222,-0.129843,-0.814701,8.763533,-0.010476,0.000878,-0.004961,0.010286
0.006666,-0.129843,-0.814701,8.763208,-0.010476,0.000878,-0.004637,0.009962
0.015554,-0.129843,-0.814701,8.7538,-0.010801,0.000554,-0.004961,0.009638
0.024442,15.737,-0.814701,8.763533,-0.010476,0.000878,-0.004637,0.010286
0.03333,165.524,-0.814701,8.763208,-0.010476,0.000878,-0.004312,0.009962
0.04444,390.725,-0.814701,8.763533,-0.010476,0.00023,-0.004637,0.009962
0.05555,671.186,-0.814701,8.753475,-0.010476,0.000554,-0.004637,0.009638
0.06666,977.455,-0.815025,8.753151,-0.010801,0.000554,-0.004637,0.009313
0.075548,330.477,-0.815349,8.752826,-0.010801,0.000554,-0.005286,0.009638
0.086658,32.5647,-0.814701,8.753151,-0.010152,0.000878,-0.004961,0.009638
0.09999,3.479802,-0.814701,8.753151,-0.010801,0.000554,-0.004637,0.009638
0.1111,-0.129843,-0.814701,8.753151,-0.010476,0.00023,-0.004961,0.009638
0.12221,-0.753091,-0.815025,8.755098,-0.010476,0.000554,-0.004961,0.009638
0.13332,-0.753091,-0.814701,8.754449,-0.010476,0.000554,-0.004637,0.009313
0.142208,-0.753091,-0.814376,8.754449,-0.010476,0.000554,-0.005286,0.009313
0.14443,-0.753091,-0.814376,8.763857,-0.010476,0.000878,-0.004637,0.009962